Folder: IBStilpnomelane/reference

Note: README.md
This repository is related to Normative mineralogy at Iron Bridge
with special attention paid to the modelling of recovery and hardness.

File: compiled_xrd.csv
,Mineral,Spinel_group,Hematite_group,Quartz,Chlorite_group,Dolomite_group,Calcite_group-Siderite,Calcite_group-Calcite,Pyrite_group,Rutile_group,K-Feldspar,Stilpnomelane,Mica_group,Plagioclase,Goethite,Smectite_group,Sepiolite,Kaolinite-serpentine_group,Pyroxene,Total,Unassigned_peak,report,Client_sample_ID,BV_sample_ID,Sample_ID,Sample ID,Type,Fe_%,SiO2_%,Al2O3_%,TiO2_%,Mn_%,CaO_%,P XRF_%,S XRF_%,MgO_%,K2O_%,Na2O_%,Zn_%,As_%,Cl_%,Cu_%,Pb_%,Ba_%,V_%,Cr_%,Ni_%,Co_%,Sn XRF_%,Zr_%,Sr_%,Fe3O4_%,LOI_371_%,LOI_650_%,LOI_1000_%,LOI_ Total_%,P80_um_(l),Mass_g,,,,
0,1-0055,31,3,38,4,5,10,0.5,,0.5,3,4,,,,,,,,100,Tr,N9646XD21,NSRD0800 Comp 4-53um DTR Feed,1-0055,NSRD0800-F-4,NSRD0800-F-4,Feed,32.14,41.47,2.15,0.09,0.47,1.28,0.08,0.04,2.24,0.89,0.11,0.01,0,0,0,0,0.02,0,0.02,0.01,0,0,0,0.01,30.5,0.34,4,0.45,4.79,30.45,40.07,,,,
6,1-074,89,,6,0.5,,,3,,,,2,,,,,,,,100,Tr,N9741XD21,44710074 NSRD0798 Comp 3 -53um DTR Cons,1-074,NSRD0798-F-3,NSRD0798-F-3,Cons,65.71,7.35,0.22,0.03,0.08,0.11,0.03,0.01,0.33,0.06,0,0,0,0,0,0,0,0,0.02,0.01,0,0,0,0,85.8,-0.25,-0.61,-1.44,-2.3,43.4,15.324,,,,
12,7-080,86,,6,0.5,,,4,,,,5,,,,,,,,100,Tr,N9741XD21,44710080 NSRD0798 Comp 9 -53um DTR Cons,7-080,NSRD0798-F-9,NSRD0798-F-9,Cons,64.15,8.5,0.46,0.05,0.08,0.17,0.02,0.02,0.45,0.12,0.04,0,0,0,0,0,0,0.01,0.07,0.01,0,0,0,0,80.7,-0.14,-0.23,-1.22,-1.59,50.17,7.458,,,,
18,2-44710165,,2,51,4,8,15,,,,3,17,,,,,,,,100,Tr,N9774XD21,44710165 NSRD0798 Comp 4 -45um DTR Tails,2-44710165,NSRD0798-F-4,NSRD0798-F-4,Tails,14.14,59.17,2.25,0.09,0.93,2.39,0.16,0.16,3.47,0.78,0.11,0.01,0,0,0.01,0,0.02,0,0,0.01,0,0,0,0.01,1.2,0.6,7.04,1.89,9.53,26.95,22.131,,,,
24,4-44710167,,1,49,4,9,14,,,,3,20,,,,,,,,100,Tr,N9774XD21,44710167 NSRD0798 Comp 6 -45um DTR Tails,4-44710167,NSRD0798-F-6,NSRD0798-F-6,Tails,14.9,58.49,2.24,0.09,0.53,3.04,0.15,0.18,3.13,0.7,0.11,0.01,0,0,0,0,0.01,0,0,0.01,0,0,0,0.01,1,0.72,6.38,2.47,9.57,29.98,26.59,,,,
30,6-44710169,,1,41,3,2,24,,,,,29,,,,,,,,100,Tr,N9774XD21,44710169 NSRD0798 Comp 8 -45um DTR Tails,6-44710169,NSRD0798-F-8,NSRD0798-F-8,Tails,20.43,51.88,2.44,0.1,0.53,1.16,0.15,0.11,2.96,0.63,0.15,0.01,0,0,0,0,0.01,0,0,0.01,0,0,0,0.01,1.1,1.47,8.07,0.47,10.01,30.69,28.104,,,,
36,8-44710171,,,44,6,8,16,,,,,27,,,,,,,,100,Tr,N9774XD21,44710171 NSRD0798 Comp 10 -45um DTR Tails,8-44710171,NSRD0798-F-10,NSRD0798-F-10,Tails,18.6,53.1,3.05,0.13,0.45,2.66,0.15,0.19,2.97,0.72,0.15,0.01,0,0,0,0,0.01,0,0.01,0.01,0,0,0,0.01,1,1.08,6.13,2,9.21,30.23,28.391,,,,
42,21-44710184,,3,61,0.5,8,13,,,,6,9,,,,,,,,100,Tr,N9774XD21,44710184 NSRD0797 Comp 13 -53um DTR Tails,21-44710184,NSRD0797-F-13,NSRD0797-F-13,Tails,10.13,64.93,1.84,0.08,0.96,2.64,0.13,0.06,3.67,1.14,0.07,0.01,0,0,0.01,0.01,0.03,0,0,0,0,0,0,0.02,1.8,2.56,0.88,6.03,9.47,31.25,21.015,,,,
48,27-44710190,,3,48,8,6,13,,,,14,8,,,,,,,,100,Tr,N9774XD21,44710190 NSRD0799 Comp 13 -53um DTR Tails,27-44710190,NSRD0799-F-13,NSRD0799-F-13,Tails,12.59,59.29,4.93,0.21,0.57,1.83,0.12,0.51,3.39,2.51,0.16,0.01,0,0,0.01,0,0.06,0,0.01,0.01,0,0,0.01,0.01,0.9,0.37,5.97,1.33,7.67,29.53,27.645,,,,
54,33-44710196,0.5,0.5,37,11,4,12,1,,,21,13,,,,,,,,100,Tr,N9774XD21,44710196 NSRD0800 Comp 6 -53um DTR Tails,33-44710196,NSRD0800-F-6,NSRD0800-F-6,Tails,14.4,55.27,7.55,0.34,0.32,1.3,0.11,0.37,3.37,3.39,0.15,0.01,0,0.01,0.01,0.01,0.08,0.01,0.03,0.02,0,0,0.01,0.01,0.7,0.97,5.29,0.57,6.83,31.65,33.489,,,,
60,39-44710202,0.5,2,48,8,6,19,1,,,4,12,,,,,,,,100,Tr,N9774XD21,44710202 NSRD0801 Comp 5 -53um DTR Tails,39-44710202,NSRD0801-F-5,NSRD0801-F-5,Tails,16.06,57.33,3.26,0.13,0.4,1.93,0.14,0.39,3,1.01,0.1,0.01,0,0,0.01,0,0.01,0,0.01,0.01,0,0,0,0.01,0.9,0.46,7.28,1.34,9.08,26.97,29.955,,,,
66,45-44710208,,3,64,8,,23,,,,0.5,,0.5,,,,,,,100,Tr,N9774XD21,44710208 GVRD0268 Comp 4 -53um DTR Tails,45-44710208,GVRD0268-F-4,GVRD0268-F-4,Tails,15.1,61.63,2.18,0.09,0.99,0.51,0.13,0.14,2.47,0.16,0.02,0.01,0,0,0.01,0,0.01,0,0,0.01,0,0,0,0.01,1,1.31,7.73,0.41,9.45,20.54,23.324,,,,
72,1-44710245,27,13,42,3,,12,,,0.5,,,,,3,,,,,100,Tr,N9821XD21,NSRD0796 Comp 2 -53um DTR Feed,1-44710245,NSRD0796-F-2,NSRD0796-F-2,Feed,35.2,39.7,1.4,0.06,0.56,0.44,0.12,0.06,1.8,0.35,0.03,0,0,0,0,0,0,0,0.01,0.01,0,0,0,0.01,25,0.49,4.33,-0.08,4.74,30.62,40.034,,,,
78,7-44710251,,5,64,7,,19,,,1,,,,,4,,,,,100,Tr,N9821XD21,NSRD0796 Comp 2 -53um DTR Tails,7-44710251,NSRD0796-F-2,NSRD0796-F-2,Tails,15.78,60.81,2.15,0.09,0.84,0.68,0.19,0.09,2.72,0.55,0.02,0.02,0,0,0.01,0,0.01,0,0,0.01,0,0,0,0.01,1.2,1.03,7.14,0.33,8.5,20.22,24.579,,,,
84,13-44710257,28,5,39,4,0.5,22,,,,,,0.5,0.5,,,,,,100,Tr,N9821XD21,GVRD0267 Comp 4 -53um DTR Feed,13-44710257,GVRD0267-F-4,GVRD0267-F-4,Feed,34.61,37.2,1.27,0.06,0.46,0.8,0.11,0.1,1.86,0.14,0.05,0,0,0.01,0,0,0,0,0.01,0,0,0,0,0.01,27.81,1.06,6.74,-0.02,7.78,31.5,40.07,,,,
90,19-44710263,,7,54,5,2,30,,,,,,1,,,,,,,100,Tr,N9821XD21,GVRD0267 Comp 4 -53um DTR Tails,19-44710263,GVRD0267-F-4,GVRD0267-F-4,Tails,20.18,51.59,1.75,0.07,0.61,1.08,0.15,0.15,2.51,0.2,0.05,0,0,0,0.01,0,0,0,0,0,0,0,0,0.01,0.86,1.9,9.68,0.54,12.12,27.88,27.46,,,,
96,25-44710269,31,9,42,4,,11,,,0.5,,,,,2,,,,,100,Tr,N9821XD21,GVRD0269 Comp 2 -53um DTR Feed,25-44710269,GVRD0269-F-2,GVRD0269-F-2,Feed,35.75,39.58,1.35,0.07,0.63,0.56,0.14,0.1,1.5,0.24,0.01,0,0,0,0,0,0,0.01,0.01,0,0,0,0,0.01,31.03,0.25,3.65,-0.08,3.82,32.59,40,,,,
102,31-44710275,,7,65,7,,17,,,0.5,,,,,3,,,,,100,Tr,N9821XD21,GVRD0269 Comp 2 -53um DTR Tails,31-44710275,GVRD0269-F-2,GVRD0269-F-2,Tails,15.56,62.27,2.09,0.08,0.95,0.65,0.2,0.14,2.26,0.39,0.02,0,0,0,0.01,0,0.01,0,0.01,0.01,0,0,0,0.01,0.89,0.58,6.45,0.64,7.67,35.81,24.06,,,,
108,37-44710282,84,,8,1,,4,,,,,,,,,,2,,,100,Tr,N9821XD21,NSRD0797 Comp 3 -53um DTR Cons,37-44710282,NSRD0797-F-3,NSRD0797-F-3,Cons,63.98,8.81,0.32,0.04,0.1,0.11,0.02,0.01,0.54,0.03,0.02,0,0,0,0,0,0,0,0.02,0.01,0,0,0,0,83.8,-1.38,-0.19,0,-1.57,44.81,13.717,,,,
114,43-44710288,79,12,6,0.5,,1,,,0.5,,,,,,,0.5,,,100,Tr,N9821XD21,NSRD0799 Comp 5 -53um DTR Cons,43-44710288,NSRD0799-F-5,NSRD0799-F-5,Cons,66.9,5.53,0.42,0.04,0.04,0.06,0.01,0.01,0.19,0.23,0.03,0.01,0,0.01,0,0,0.01,0.01,0.1,0.02,0,0,0,0,74.85,-0.3,-0.76,-1.18,-2.24,43.85,9.85,,,,
120,49-44710294,91,,4,2,,1,,,,,,,,,,2,,,100,Tr,N9821XD21,NSRD0799 Comp 16 -53um DTR Cons,49-44710294,NSRD0799-F-16,NSRD0799-F-16,Cons,66.06,6.13,0.65,0.07,0.04,0.07,0.01,0.02,0.38,0.22,0.02,0.01,0,0,0,0,0.01,0.02,0.21,0.01,0,0,0,0,84.99,-0.26,-0.75,-1.35,-2.36,44.46,7.805,,,,
126,55-44710300,90,,6,2,,1,,,,,,,,,,0.5,,,100,Tr,N9821XD21,NSRD0800 Comp 11 -53um DTR Cons,55-44710300,NSRD0800-F-11,NSRD0800-F-11,Cons,65.24,7.45,0.59,0.05,0.05,0.07,0.01,0.02,0.38,0.25,0.01,0.01,0,0,0,0,0.01,0.01,0.06,0.01,0,0,0,0.01,83.7,-0.86,-1.17,-0.34,-2.37,44.62,12.142,,,,
132,61-44710306,94,,4,0.5,,0.5,,,,,,,,,,1,,,100,Tr,N9821XD21,NSRD0801 Comp 7 -53um DTR Cons,61-44710306,NSRD0801-F-7,NSRD0801-F-7,Cons,67.57,4.69,0.36,0.04,0.03,0.12,0.02,0.02,0.3,0.08,0.02,0,0,0,0,0,0,0.01,0.09,0.01,0,0,0,0,88.6,-0.33,-1.04,-1.17,-2.54,44.86,4.883,,,,
138,67-44710312,90,,6,,,4,,,,,,,,,,,,,100,Tr,N9821XD21,NSRD0796 Comp 6 -53um DTR Cons,67-44710312,NSRD0796-F-6,NSRD0796-F-6,Cons,66.67,5.51,0.18,0.02,0.09,0.09,0.02,0.01,0.28,0.06,0.04,0,0,0,0,0,0,0,0.03,0.01,0,0,0,0,86.8,-0.29,-0.39,-1.07,-1.75,40.02,12.35,,,,
144,73-44710318,93,0.5,5,,,1,,,,,,,,,,,,,100,Tr,N9821XD21,GVRD0267 Comp 8 -53um DTR Cons,73-44710318,GVRD0267-F-8,GVRD0267-F-8,Cons,67.23,5.71,0.1,0.02,0.06,0.08,0.02,0.01,0.18,0.02,0.01,0,0,0.01,0,0,0.01,0,0.03,0.01,0,0,0,0.01,88.47,-0.42,-0.73,-1.23,-2.38,47.88,13.59,,,,
150,79-44710324,90,2,7,,,1,,,,,,,,,,,,,100,Tr,N9821XD21,GVRD0268 Comp 6 -53um DTR Cons,79-44710324,GVRD0268-F-6,GVRD0268-F-6,Cons,66.35,6.88,0.12,0.01,0.09,0.07,0.02,0,0.16,0.03,0.01,0,0,0,0,0,0,0,0.02,0.01,0,0,0,0,87.2,-0.46,-0.91,-1.02,-2.39,42.44,15.998,,,,
156,85-44710330,89,1,6,,,2,,,,,,,,,,,2,,100,Tr,N9821XD21,GVRD0269 Comp 4 -53um DTR Cons,85-44710330,GVRD0269-F-4,GVRD0269-F-4,Cons,66.14,6.38,0.21,0.03,0.09,0.1,0.03,0.01,0.26,0,0.01,0,0,0.01,0,0,0,0,0.03,0.01,0,0,0,0.01,88.29,-0.28,-0.52,-1.33,-2.13,44.27,14.919,,,,
162,9-0042,23,1,39,5,5,14,0.5,0.5,0.5,0.5,10,,,,,,,,100,Tr,N9606XD21,NSRD0801 Comp 5 -53um DTR Feed,9-0042,NSRD0801-F-5,NSRD0801-F-5,Feed,29.17,43.79,2.5,0.1,0.31,1.49,0.11,0.29,2.32,0.81,0.08,0,0,0,0,0,0.01,0,0.02,0.01,0,0,0,0.01,22.3,0.28,5.27,0.66,6.21,30.47,39.95,,,,
168,15-0048,37,2,40,5,,15,,0.5,,,,,,,,,,,100,Tr,N9606XD21,GVRD0268 Comp 4 -53um DTR Feed,15-0048,GVRD0268-F-4,GVRD0268-F-4,Feed,36.88,38.15,1.34,0.06,0.62,0.32,0.09,0.08,1.57,0.1,0.02,0,0,0,0,0,0,0,0.01,0,0,0,0,0,37.8,0.5,4.27,-0.21,4.56,28.13,40.03,,,,
,NSD0037-1,41.3,0.8,25.5,0.5,0.1,18.9,,,,7.3,3.2,,1.4,,,,,,,,,,,,,,39.15,31.88,1.84,0.08,0.59,0.92,0.26,0.05,1.87,1.2,0.194,0.003,0,0,0.001,-0.001,0.017,0.005,0.021,0.006,0.001,0.001,0.003,0.009,42.2,,,,4.15,,,,,,
,NSD0037-7,29.5,5.6,27.7,2.8,4.1,17.2,,,,5.6,5.6,,1.9,,,,,,,,,,,,,,33.86,35.55,1.78,0.08,0.62,2.5,0.63,0.2,2.14,0.93,0.206,0.004,0,0,0.003,0.003,0.016,0.003,0.031,0.007,0.001,-0.001,0.006,0.015,28.4,,,,5.46,,,,,,
,NSD0037-13,2.4,0,22.5,13.1,5.8,0,,,,53.5,2.3,,0.3,,,,,,,,,,,,,,6.46,62.55,12.35,0.55,0.06,0.97,0.01,0.34,2.31,9.02,0.124,0.012,0,0,0.008,0.005,0.055,0.019,0.088,0.029,0.001,0.011,0.013,0.01,2.78,,,,2.58,,,,,,
,NSD0037-19,11,0,20.8,19,0.8,4.5,,,,30.5,9.9,,0.4,,,,,,,,,,,,,,17.41,50.77,9.56,0.43,0.18,0.22,0.03,0.13,4.26,5,0.327,0.011,0,0,0.005,0.003,0.056,0.018,0.074,0.028,0.001,0.003,0.008,0.009,10.3,,,,3.66,,,,,,
,NSD0038-25,10.9,3,51,0.7,13.1,20.4,,,,0,0.8,,0,,,,,,,,,,,,,,21.12,52.72,0.26,0.01,0.88,2.53,0.02,0,2.39,0.07,0.031,0.001,0,0,0.002,0.002,0.002,-0.001,0.001,0.002,0.001,-0.001,0.004,0.016,11.9,,,,10.64,,,,,,
,NSD0038-31,24.8,6,32.7,2.4,8.5,12.8,,,,6.8,4.4,,1.5,,,,,,,,,,,,,,30.23,41.13,2.31,0.12,0.51,2.41,0.02,0.05,2.49,1.27,0.174,0.003,0,0,0.002,-0.001,0.026,0.004,0.027,0.01,0.001,0.003,0.004,0.014,24.5,,,,6.28,,,,,,
,NSD0038-37,14.7,0.1,16.8,6.7,1.1,17,,,,32.9,5.4,,5.3,,,,,,,,,,,,,,20.53,45.42,8.28,0.36,0.39,0.43,0.04,0.4,3.58,5.03,0.552,0.011,0,0,0.003,0.002,0.09,0.008,0.075,0.026,0.002,0.004,0.007,0.009,15.3,,,,5.71,,,,,,
,NSD0038-39,42,2.3,34,3.3,0.2,9.6,,,,6,0.6,,0.8,,,,,,,,,,,,,,36.96,39.25,1.75,0.08,0.38,0.2,0.02,0.02,1.53,1.01,0.122,0.003,0,0,0.002,0.002,0.018,0.003,0.014,0.009,0.002,0.001,0.003,0.008,40,,,,2.41,,,,,,