Folder: IBStilpnomelane/src/reference

Note: README.md
This repository is related to Normative mineralogy at Iron Bridge
with special attention paid to the modelling of recovery and hardness.

File: xrd_and_assay.csv
Chlorite group,Quartz,Pyroxene,Plagioclase,K-Feldspar,Calcite group - Siderite,Calcite group,Dolomite group,Spinel group,Hematite group,Stilpnomelane,Mica group,Pyrite,Rutile group,Goethite,Smectite group,Sepiolite,Kaolinite-serpentine group,Birnessite,Fe3O4,Fe,SiO2,Al2O3,TiO2,Mn,CaO,P,S,MgO,K2O,Na2O,Zn,As,Cl,Cu,Pb,Ba,V,Cr,Ni,Co,Sn,Zr,Sr,LOI371,LOI650,LOI1000,LOI
3.12515,41.9081,,0,,12.3522,,0,26.6186,12.9189,,0,,0.414433,2.66266,0,0,0,,25,35.2,39.7,1.399,0.061,0.561,0.435,0.123,0.057,1.8,0.35,0.027,0.004,0.001,-0.001,0.002,0.002,0.004,0.003,0.01,0.008,0.001,0.001,0.001,0.007,0.49,4.33,-0.08,4.74
3.66272,49.3729,,3.20403,,40.0895,,1.53055,0,1.23959,,0,,0.900802,0,0,0,0,,0.9,19.52,48.64,1.809,0.069,0.821,0.924,0.137,0.078,3.1,0.498,0.255,0.014,0.001,0.001,0.007,0.003,0.005,-0.001,0.002,0.005,0.001,-0.001,0.001,0.013,6.19,8.62,0.2,15.01
7.34196,57.6656,,0,,25.8479,,2.10452,0,5.59401,,1.44602,,0,0,0,0,0,,0.86,18.09,55.52,2.142,0.087,0.619,1.037,0.137,0.154,2.73,0.203,0.034,0.007,0.001,-0.001,0.008,0.001,0.004,0.002,0.011,0.003,0.001,-0.001,0.005,0.01,0.28,9.96,0.78,11.02
7.21171,65.4908,,0,,16.8596,,0,0,6.74721,,0,,0.616541,3.07418,0,0,0,,0.89,15.56,62.27,2.089,0.083,0.953,0.653,0.202,0.138,2.26,0.387,0.018,0.004,0.001,-0.001,0.007,-0.001,0.005,-0.001,0.012,0.008,-0.001,-0.001,0.003,0.006,0.58,6.45,0.64,7.67
0,7.39704,,0,,1.00103,,0,89.6434,0,,0,,0,0,0,1.95857,0,,87.5,65.02,8.452,0.23,0.021,0.082,0.116,0.023,0.003,0.331,0.151,0.023,0.003,-0.001,0.003,0.003,-0.001,0.002,0.003,0.016,0.008,0.002,-0.001,0.001,0.003,-0.41,-0.85,-1.35,-2.61
0.978826,6.77392,,0,,0.900845,,0,90.2979,0,,0,,0.413092,0,0,0.635385,0,,84.2,65.47,7.62,0.59,0.042,0.055,0.099,0.016,0.018,0.31,0.325,0.021,0.005,-0.001,0.009,-0.001,0.001,0.011,0.009,0.078,0.012,0.002,0.002,0.002,0.003,-0.4,-0.84,-1.26,-2.50
2.15063,7.04773,,0,,1.60288,,0,88.0962,0,,0,,0,0,0,1.10258,0,,83.3,64.02,8.69,0.645,0.052,0.067,0.105,0.016,0.038,0.421,0.26,0.027,0.009,-0.001,0.001,0.004,0.009,0.015,0.011,0.092,0.014,0.001,-0.001,-0.001,0.009,-0.29,-0.68,-1.18,-2.15
0.944763,3.85328,,0,,0.668631,,0,88.2131,5.59095,,0,,0,0,0,0.729324,0,,84.4,67.86,4.607,0.304,0.024,0.029,0.109,0.009,0.008,0.18,0.145,-0.001,0.002,-0.001,0.004,0.001,-0.001,0.002,0.007,0.049,0.008,-0.001,0.003,-0.001,-0.001,-0.4,-0.97,-1.21,-2.58
0,5.57246,,0,,4.0692,,0,90.3583,0,,0,,0,0,0,0,0,,86.8,66.67,5.505,0.175,0.02,0.089,0.088,0.018,0.006,0.278,0.063,0.037,0.004,-0.001,-0.001,0.001,-0.001,0.003,0.004,0.026,0.009,0.002,0.001,-0.001,0.003,-0.29,-0.39,-1.07,-1.75
0,6.55964,,0,,1.22809,,0,89.69,0.903988,,0,,0,0,0,0,1.61825,,86.6,66.58,6.586,0.146,0.019,0.077,0.062,0.017,0.006,0.174,0.007,-0.001,0.002,-0.001,0.002,0.001,0.003,0.003,0.004,0.021,0.007,-0.001,-0.001,-0.001,-0.001,-0.43,-0.98,-1.01,-2.42
0,3.73659,,0,,0.425692,,0,93.4105,2.42719,,0,,0,0,0,0,0,,89.42,68.79,3.817,0.105,0.019,0.054,0.089,0.022,0.006,0.136,0.036,0.009,0.003,-0.001,0.008,-0.001,-0.001,0.002,0.002,0.022,0.009,0.001,-0.001,0.001,0.001,-0.4,-1.09,-1.31,-2.80
3.68342,47.7746,,2.10036,1.51217,23.224,0,1.79054,0,1.61774,18.2972,0,,,0,,,,,0.9,16.62,56.53,1.977,0.087,0.891,1.061,0.157,0.063,3.53,0.494,0.108,0.007,0.001,0.003,0.006,-0.001,0.009,-0.001,-0.001,0.004,0.001,-0.001,0.004,0.01,0.86,9.11,0.43,10.40
6.49298,52.5974,,0,2.42364,18.9946,0,4.5279,0,1.54969,13.4139,0,,,0,,,,,0.9,13.65,59.95,2.155,0.085,0.883,1.616,0.156,0.074,4.29,0.402,0.106,0.004,-0.001,0.004,0.006,0.003,0.018,-0.001,0.001,0.003,-0.001,-0.001,0.004,0.012,0.83,8.29,1.16,10.28
4.28961,45.9188,,5.17947,11.6345,12.6748,0,6.61841,0,6.56727,7.11716,0,,,0,,,,,0.88,13.87,59.09,4.274,0.192,0.599,1.844,0.113,0.135,3.4,2.167,0.446,0.005,0.001,-0.001,0.007,0.005,0.053,0.002,0.009,0.009,0.002,-0.001,0.007,0.013,0.41,6.15,1.31,7.87
6.29737,52.8498,,3.89557,5.02561,14.3864,0.901135,6.71748,1.11723,4.08447,4.72497,0,,,0,,,,,1,13.28,61.17,3.177,0.132,0.679,1.882,0.114,0.085,3.23,1.253,0.162,0.007,0.001,0.004,0.009,-0.001,0.03,0.001,0.004,0.005,-0.001,-0.001,0.006,0.008,0.75,6.46,1.44,8.65
7.86663,48.012,,3.8016,6.96028,16.4882,0.79522,7.37463,1.17647,1.48948,6.03546,0,,,0,,,,,0.9,13.21,58.68,4.206,0.179,0.548,2,0.128,0.24,3.67,1.747,0.201,0.008,0.001,0.005,0.009,0.002,0.035,0.002,0.008,0.011,0.002,-0.001,0.006,0.012,0.6,7.02,1.48,9.10
8.10958,64.3119,,0,0.859501,23.208,0,0,0,3.00784,0,0.5032,,,0,,,,,1,15.1,61.63,2.18,0.094,0.991,0.511,0.133,0.137,2.47,0.164,0.024,0.005,-0.001,0.002,0.009,0.004,0.009,0.002,0.003,0.007,0.001,-0.001,0.003,0.011,1.31,7.73,0.41,9.45
0.659132,8.38566,,,0,3.64182,,0,82.4681,,3.93458,,0.910676,0,,,,,,78.3,62.3,10.69,0.454,0.049,0.087,0.172,0.019,0.021,0.515,0.116,0.026,0.003,-0.001,0.003,0.004,0.003,0.006,0.008,0.043,0.009,0.002,0.001,0.002,0.006,-0.14,0.03,-1.26,-1.37
5.08135,33.3456,,,0,21.2269,,5.52907,0.602908,,34.2142,,0,0,,,,,,1,22.3,47.48,3.091,0.135,0.445,1.704,0.137,0.251,3.02,0.747,0.16,0.006,0.002,0.003,0.004,-0.001,0.012,0.001,0.007,0.009,0.001,-0.001,0.004,0.01,1.16,8.04,1.03,10.23
7.66615,36.3378,,,4.55164,10.733,0.446781,5.62673,26.2639,1.46843,5.91733,,0.380212,0.608035,,,,,,26.6,29.5,43.02,3.231,0.147,0.381,1.255,0.066,0.293,2.84,1.13,0.126,0.006,-0.001,0.004,0.004,0.003,0.03,0.004,0.026,0.011,0.001,-0.001,0.005,0.01,0.15,4.38,0.56,5.09
0.792038,41.681,,,0,21.134,0,0,30.0543,5.77188,0,0.566831,0,0,,,,,,29.03,35.46,38.25,0.965,0.043,0.572,0.473,0.116,0.044,1.49,0.302,0.014,0.003,0.001,0.003,-0.001,-0.001,0.003,0.003,0.009,0.007,-0.001,-0.001,0.002,0.006,1.28,5.5,-0.19,6.59
4.19127,33.9526,0,0,0,13.8888,0.445174,2.9458,35.4368,1.2565,7.88309,,,,,,,,,36.1,35.24,38.04,1.361,0.059,0.558,0.996,0.098,0.045,2.72,0.284,0.066,0.003,-0.001,0.004,0.003,0.002,0.012,0.002,0.008,0.003,-0.001,-0.001,0.004,0.008,0.36,4.66,0.03,5.05
4.0462,25.8615,0,1.64535,0,18.7418,3.01487,3.70386,14.815,1.42884,26.7426,,,,,,,,,16,30.33,40.19,2.566,0.117,0.383,1.457,0.114,0.212,2.61,0.687,0.123,0.005,0.002,0.002,0.004,0.003,0.012,0.004,0.018,0.009,0.001,0.001,0.003,0.008,1.71,5.62,0.73,8.06
6.56243,32.0168,0,0.981445,10.0936,10.5316,0.575579,4.85266,24.845,2.34036,7.20046,,,,,,,,,26.65,28.88,43.33,3.645,0.16,0.427,1.34,0.085,0.354,2.53,1.874,0.108,0.005,0.002,0.003,0.005,0.004,0.043,0.004,0.027,0.011,-0.001,0.002,0.006,0.009,0.16,3.75,0.66,4.57
0,32,,2,2,42,0,1,14,5,0,2,,,,,,,0,16.22,33.14,32.67,0.943,0.038,0.582,0.71,0.095,0.007,2.26,0.44,0.151,0.002,0.002,0.004,0.002,-0.001,0.002,-0.001,0.006,0.001,-0.001,-0.001,0.002,0.009,0.12,14.19,0.01,14.32
0,33,,0,3,8,0,6,42,2,6,0,,,,,,,0,45,36.34,37.18,1.016,0.045,0.642,1.479,0.089,0.021,2.49,0.657,0.075,0.002,0.001,0.001,0.003,0.001,0.012,-0.001,0.01,0.004,-0.001,-0.001,0.002,0.01,0.05,3.1,0.75,3.90
6,31,,2,8,9,0,6,27,5,6,0,,,,,,,0,26.55,30.16,41.88,3.277,0.141,0.416,1.42,0.102,0.117,2.38,1.537,0.197,0.005,-0.001,0.001,0.002,0.002,0.031,0.003,0.037,0.013,0.001,0.001,0.005,0.013,0.24,3.9,0.88,5.02
8,31,,0,9,11,0,5,26,1,9,0,,,,,,,0,29.82,29.78,41.67,3.554,0.154,0.439,1.398,0.078,0.135,2.51,1.708,0.093,0.005,-0.001,0.004,0.003,0.001,0.039,0.004,0.031,0.01,0.001,-0.001,0.006,0.011,0.15,4.22,0.88,5.25
4,35,,0,0,28,0,1,29,1,0,1,,,,,,,0,30.06,35.11,33.5,1.248,0.05,0.65,0.893,0.139,0.075,2.44,0.17,0.01,0.003,-0.001,-0.001,-0.001,-0.001,0.002,-0.001,0.01,0.002,-0.001,-0.001,0.002,0.011,0.07,10.08,-0.14,10.01
9,38,,0,1,16,0,1,32,1,2,0,,,,,,,0,33.94,33.83,38.93,1.872,0.083,0.565,0.668,0.122,0.197,2.19,0.27,0.019,0.003,-0.001,0.002,0.001,-0.001,0.002,0.002,0.016,0.005,-0.001,-0.001,0.003,0.01,0.07,6.04,-0.12,5.99
4.378,38.166,,0,0,12.029,0,4.697,39.894,0.837,,0,,,0,,0,0,,41.9,37.11,36.77,0.899,0.034,0.566934,1.456,0.081,0.016,1.6,0.001,0.025,0.002,-0.001,0.001,-0.001,-0.001,-0.001,-0.001,0.005,0.004,-0.001,0.001,0.002,0.01,0.01,5.34,-0.34,5.01
2.537,37.247,,0,0,14.371,0,0,43.864,1.487,,0.493,,,0,,0,0,,43.4,39.08,34.89,1.418,0.062,0.525111,0.466,0.115,0.021,1.9,0.279,0.007,0.003,-0.001,-0.001,0.001,0.002,0.008,0.002,0.009,0.004,0.001,-0.001,0.003,0.01,-0.01,4.42,-0.14,4.27
0,49.87,,0,0,20.798,0,0,22.458,5.95,,0.924,,,0,,0,0,,24.3,30.15,46.94,0.586,0.031,0.436818,0.497,0.107,0.002,1.11,0.191,0.06,0.002,0.002,-0.001,0.002,0.002,0.002,-0.001,0.005,0.003,0.001,-0.001,0.003,0.011,0.06,6.55,-0.08,6.53
4.123,21.214,,0,0,35.022,0,0.728,21.306,0,,0,,,0,,17.607,0,,24.7,37.57,26.77,1.422,0.061,0.4902585,0.617,0.082,0.02,3.04,0.225,0.085,0.002,0.001,-0.001,-0.001,-0.001,0.013,-0.001,0.008,0.004,0.001,0.001,0.002,0.008,0.46,13.07,-0.19,13.34
0,33.643,,2.461,2.38,22.294,0,0,34.708,3.696,,0.817,,,0,,0,0,,34.4,36.58,34.5,1.348,0.057,0.4980035,0.281,0.045,0.022,2.04,0.591,0.193,0.002,0.002,-0.001,-0.001,-0.001,-0.001,-0.001,0.008,0.005,0.001,-0.001,0.002,0.009,0.13,7.78,-0.33,7.58
1.242,33.643,,0,2.378,8.437,0,4.049,40.935,0.928,,0,,,0,,8.386,0,,44.6,37.72,36.19,1.157,0.05,0.429073,1.523,0.166,0.025,2.13,0.547,0.061,0.003,0.001,-0.001,0.001,0.003,0.014,0.002,0.008,0.004,-0.001,0.001,0.002,0.01,2.2,0.58,0.58,3.36
0,19.274,,0,0,11.811,0,5.909,22.098,0,,0,,,0,,37.523,3.385,,25.5,33.89,34.78,2.684,0.123,0.2935355,2.147,0.065,0.074,2.47,0.812,0.21,0.005,-0.001,-0.001,0.003,0.002,0.013,0.003,0.024,0.009,0.001,-0.001,0.004,0.013,1.54,4.06,1.81,7.41
0.816,20.873,,0,6.699,3.649,0,6.039,37.132,0,,0,,,0,,24.793,0,,35.9,35.93,35.83,3.001,0.145,0.141733,2.015,0.22,0.134,2.16,1.674,0.238,0.005,0.001,-0.001,0.002,0.003,0.02,0.004,0.023,0.01,0.001,0.002,0.004,0.011,0.49,0.96,1.02,2.47
3.468,29.817,,2.96,3.872,8.764,0,3.969,37.943,3.375,,0,,,0,,5.833,0,,40,36.41,36.21,2.145,0.089,0.389573,1.206,0.089,0.031,2.35,0.793,0.309,0.003,0.001,-0.001,0.001,0.002,0.015,0.003,0.02,0.008,0.001,0.001,0.004,0.011,0.09,3.3,0.52,3.91
6.322,31.111,,0,3.008,19.152,0,0.365,30.641,0,,0,,,0,,9.401,0,,32,34.74,36.2,2.292,0.103,0.5041995,0.31,0.024,0.049,2.79,0.595,0.082,0.005,-0.001,0.001,0.002,0.003,0.022,0.006,0.018,0.007,0.001,-0.001,0.004,0.01,0.25,6.91,-0.24,6.92
13.265,30.296,,0,4.944,14.693,0,9.003,15.86,0,,0,,,0,,11.939,0,,16.4,26.16,39.3,4.664,0.207,0.5553165,2.763,0.038,0.091,3.64,0.946,0.098,0.006,-0.001,-0.001,0.003,0.003,0.041,0.003,0.038,0.014,0.002,0.001,0.006,0.014,0.37,6.53,2.9,9.80
2.609,35.604,,0,0.926,10.291,0,8.596,29.098,6.565,,0,,,0,,6.31,0,,31.2,33.77,38.39,1.392,0.071,0.408936,2.148,0.035,0.406,2.84,0.385,0.126,0.005,0.001,0.001,0.005,0.006,0.007,0.006,0.015,0.009,0.002,0.001,0.004,0.016,0.11,3.66,1.56,5.33
12.645,36.654,,0,2.233,9.408,0,6.572,21.259,2.706,,0,,,0,,8.524,0,,22.9,27.58,43.12,3.689,0.161,0.193625,2.309,0.25,0.098,3.5,0.473,0.112,0.005,-0.001,0.001,0.004,0.004,0.005,0.006,0.028,0.01,0.001,-0.001,0.005,0.014,0.27,4.27,1.5,6.04
1.452,27.877,,0,2.9,11.893,0,1.874,43.381,1.279,,0,,,0,,9.344,0,,45.4,40.46,32.23,1.34,0.055,0.19285,0.981,0.168,0.024,2.07,0.635,0.09,0.002,-0.001,-0.001,0.001,0.002,0.012,0.002,0.009,0.005,-0.001,-0.001,0.003,0.01,0.17,3.95,-0.14,3.98